Folder: PyEIS/Tutorials/data

File: ex4.mpt
EC-Lab ASCII FILE
Nb header lines : 59

Potentio Electrochemical Impedance Spectroscopy

Run on channel : 1 (SN 8310)
User :
CE vs. WE compliance from -10 V to 10 V
Electrode connection : standard
Ewe ctrl range : min = 0.00 V, max = 5.00 V
Safety Limits :
	Do not start on E overload
Acquisition started on : 06/12/2019 15:43:20
Saved on :
	File : ATM001BC-PS00-01-RT -0PSI_C01.mpr
	Directory : S:\R & D\Anode\Dodji\EIS folder for ATM\EIS for Recycled sample\6-12-2019\
	Host : 192.168.0.127
Device : VMP3 (SN 0411)
Address : 192.168.0.3
EC-Lab for windows v11.12 (software)
Internet server v11.12 (firmware)
Command interpretor v11.12 (firmware)
Electrode material :
Initial state :
Electrolyte :
Comments :
Electrode surface area : 0.001 cm²
Characteristic mass : 0.001 g
Equivalent Weight : 0.000 g/eq.
Density : 0.000 g/cm3
Mode                Single sine
E (V)               0.0000
vs.                 Eoc
tE (h:m:s)          0:00:0.0000
record              0
dI                  0.000
unit dI             mA
dt (s)              0.000
fi                  1.000
unit fi             MHz
ff                  100.000
unit ff             mHz
Nd                  6
Points              per decade
spacing             Logarithmic
Va (mV)             10.0
pw                  0.10
Na                  2
corr                0
E range min (V)     0.000
E range max (V)     5.000
I Range             Auto
Bandwidth           7
nc cycles           0
goto Ns'            0
nr cycles           0
inc. cycle          0

freq/Hz	Re(Z)/Ohm	-Im(Z)/Ohm	|Z|/Ohm	Phase(Z)/deg	time/s	<Ewe>/V	<I>/mA	Cs/µF	Cp/µF	cycle number	I Range	|Ewe|/V	|I|/A	Re(Y)/Ohm-1	Im(Y)/Ohm-1	|Y|/Ohm-1	Phase(Y)/deg
1.00002e+06	169.139	64.9269	181.172	-21.0002	2.4111	3.79919	-0.00130853	0.00245125	0.000314813	1	11	0.000530182	2.92639e-06	0.00515299	0.00197807	0.0055196	21.0002
674941	182.495	38.8999	186.595	-12.0328	2.80109	3.80085	0.000553366	0.00606186	0.000263452	1	11	0.0105495	5.65366e-05	0.00524144	0.00111724	0.00535919	12.0328
455547	175.949	30.8747	178.638	-9.95264	3.31708	3.80128	0.00123291	0.0113158	0.000338021	1	11	0.0103887	5.81554e-05	0.00551368	0.000967512	0.00559792	9.95264
307471	178.01	28.6706	180.304	-9.14957	3.83308	3.80131	0.000638283	0.0180543	0.000456501	1	11	0.0101315	5.61913e-05	0.00547562	0.000881911	0.00554618	9.14957
207529	183.198	28.4499	185.394	-8.82727	4.22308	3.80134	0.000738287	0.0269563	0.000634788	1	11	0.0106936	5.76805e-05	0.00533002	0.000827728	0.00539391	8.82727
140068	188.913	27.9057	190.963	-8.40278	4.61308	3.80139	0.000801418	0.0407181	0.000869507	1	11	0.0103319	5.41043e-05	0.0051804	0.000765231	0.00523661	8.40278
94541	194.265	27.2667	196.169	-7.98976	5.00308	3.80141	0.000974236	0.06174	0.00119281	1	11	0.0102536	5.22694e-05	0.00504816	0.000708553	0.00509764	7.98976
63808.6	198.831	27.4209	200.713	-7.85217	5.26708	3.80139	0.00097405	0.0909617	0.00169774	1	11	0.0109589	5.45999e-05	0.00493552	0.000680662	0.00498224	7.85217
43066.4	203.367	28.6415	205.374	-8.01659	5.65708	3.80138	0.000847974	0.129029	0.00250948	1	11	0.0100854	4.91075e-05	0.00482157	0.000679052	0.00486916	8.01659
29072.3	207.867	32.6713	210.419	-8.93233	5.92108	3.80137	0.000948909	0.167562	0.00403959	1	11	0.0102192	4.85662e-05	0.00469479	0.000737898	0.00475242	8.93233
19619.1	212.258	39.0266	215.816	-10.4183	6.18508	3.80137	0.00109826	0.207864	0.00679727	1	11	0.0102823	4.7644e-05	0.00455719	0.000837903	0.00463358	10.4183
13242.2	218.616	48.8434	224.006	-12.5942	6.44908	3.80137	0.000909615	0.246068	0.011699	1	11	0.0103041	4.59993e-05	0.00435675	0.000973389	0.00446417	12.5942
8937.29	226.52	62.1943	234.903	-15.353	6.73638	3.80134	0.000248697	0.286328	0.0200718	1	11	0.0102994	4.38451e-05	0.00410515	0.00112712	0.00425707	15.353
6057.34	237.266	78.4465	249.898	-18.2953	7.13396	3.80138	0.000842015	0.334938	0.0330055	1	11	0.0102955	4.11989e-05	0.00379936	0.00125617	0.00400164	18.2953
4071.3	249.656	101.194	269.385	-22.0644	7.59167	3.80138	0.000810542	0.386306	0.0545124	1	11	0.0102857	3.8182e-05	0.00344029	0.00139447	0.00371216	22.0644
2747.36	261.365	130.097	291.954	-26.4622	8.04896	3.80139	0.000901607	0.445285	0.0884184	1	11	0.0102721	3.51839e-05	0.00306634	0.00152629	0.0034252	26.4622
1855.59	276.423	174.638	326.968	-32.2838	8.50569	3.80139	0.000873673	0.491132	0.140109	1	11	0.0102796	3.14392e-05	0.00258561	0.00163353	0.0030584	32.2838
1252	296.995	240.331	382.054	-38.9801	9.20943	3.80139	-0.000231812	0.528939	0.209303	1	12	0.0103746	2.71548e-05	0.0020347	0.0016465	0.00261743	38.9801
845.27	328.773	334.384	468.94	-45.4848	9.66567	3.80138	-0.000133768	0.563091	0.28631	1	12	0.0103309	2.20304e-05	0.00149507	0.00152059	0.00213247	45.4848
570.182	389.01	464.424	605.82	-50.0498	10.1227	3.80138	-0.0001559	0.601024	0.35321	1	12	0.0102975	1.69976e-05	0.00105992	0.0012654	0.00165065	50.0498
385.123	498.261	637.029	808.746	-51.9688	10.5797	3.80138	-0.00017913	0.648726	0.40249	1	12	0.0102863	1.27189e-05	0.000761785	0.000973946	0.00123648	51.9688
259.751	683.859	842.437	1085.06	-50.9316	11.0359	3.80138	-0.000209663	0.727321	0.43842	1	12	0.0102703	9.46518e-06	0.000580839	0.000715528	0.000921604	50.9316
175.28	971.456	1025.86	1412.84	-46.5602	11.4904	3.80138	-0.000223225	0.885116	0.466648	1	12	0.0102624	7.26368e-06	0.000486675	0.000513928	0.000707795	46.5602
118.371	1330.96	1121.07	1740.18	-40.1075	11.9525	3.80138	-0.000197554	1.19934	0.497756	1	12	0.0102623	5.89727e-06	0.000439515	0.000370205	0.000574652	40.1075
79.9233	1761.08	1114.3	2084	-32.323	12.4089	3.80138	-0.000116872	1.78708	0.51092	1	12	0.0102616	4.92398e-06	0.000405492	0.00025657	0.000479846	32.323
53.9131	2126.02	969.5	2336.64	-24.5137	13.1248	3.80137	-0.000390677	3.04494	0.524189	1	13	0.0102635	4.39239e-06	0.000389388	0.000177567	0.000427964	24.5137
36.4098	2390.21	774.532	2512.57	-17.9546	13.566	3.80138	-0.000381904	5.64368	0.536297	1	13	0.0102712	4.08794e-06	0.000378617	0.000122688	0.000397999	17.9546
24.5676	2539.05	580.178	2604.5	-12.8712	14.0303	3.80138	-0.000389129	11.166	0.554078	1	13	0.0102667	3.94192e-06	0.000374304	8.55291e-05	0.000383951	12.8712
16.5753	2652.39	451.069	2690.48	-9.65145	14.4467	3.80138	-0.00038555	21.287	0.598333	1	13	0.0102613	3.81392e-06	0.000366421	6.23139e-05	0.000371682	9.65145
11.1927	2726.2	346.773	2748.17	-7.24909	14.8594	3.80138	-0.00037736	41.0054	0.652896	1	13	0.0102643	3.73497e-06	0.00036097	4.59154e-05	0.000363879	7.24909
7.55561	2743.62	241.288	2754.21	-5.02594	15.4515	3.80138	-0.000404266	87.3003	0.670024	1	13	0.0102608	3.7255e-06	0.000361684	3.18083e-05	0.00036308	5.02594
5.09954	2755.15	187.634	2761.53	-3.89599	15.8988	3.80139	-0.000391602	166.333	0.76789	1	13	0.010256	3.71389e-06	0.000361281	2.46043e-05	0.000362118	3.89599
3.4386	2793.38	124.9	2796.17	-2.56017	16.5446	3.80138	-0.000386122	370.574	0.739395	1	13	0.0102596	3.66916e-06	0.000357276	1.59749e-05	0.000357633	2.56017
2.31963	2788.77	84.5247	2790.05	-1.73605	17.483	3.80138	-0.000393678	811.743	0.745012	1	13	0.01026	3.67737e-06	0.000358252	1.08583e-05	0.000358417	1.73605
1.56878	2789.73	78.6659	2790.84	-1.61522	18.8534	3.80139	-0.00038511	1289.65	1.02465	1	13	0.0102574	3.67538e-06	0.000358173	1.00999e-05	0.000358315	1.61522
1.0586	2781.33	52.9675	2781.83	-1.09101	21.8577	3.80139	-0.000396243	2838.42	1.02904	1	14	0.0102621	3.68896e-06	0.00035941	6.84459e-06	0.000359475	1.09101
0.713731	2787.85	42.3505	2788.18	-0.870316	24.8317	3.80139	-0.000406155	5265.35	1.2148	1	14	0.0102626	3.68075e-06	0.000358616	5.44775e-06	0.000358657	0.870316
0.482253	2783.53	31.8142	2783.71	-0.654831	29.2166	3.80139	-0.000392099	10373.5	1.35493	1	14	0.0102654	3.68769e-06	0.000359209	4.10557e-06	0.000359233	0.654831
0.325521	2783.51	29.1389	2783.67	-0.599772	35.6998	3.8014	-0.000401322	16779.1	1.83857	1	14	0.0102657	3.68784e-06	0.000359219	3.76044e-06	0.000359238	0.599772
0.219748	2731.13	26.9529	2731.26	-0.56542	45.2896	3.80139	-0.000400863	26871.3	2.61681	1	14	0.0102646	3.75818e-06	0.000366113	3.61308e-06	0.000366131	0.56542
0.14802	2764.67	29.7882	2764.83	-0.617316	59.5161	3.80139	-0.00040071	36095.7	4.18994	1	14	0.010261	3.71128e-06	0.000361665	3.8968e-06	0.000361686	0.617316
0.0999271	2743.19	29.2174	2743.35	-0.610226	80.5755	3.80139	-0.000377698	54512.5	6.18324	1	14	0.0102646	3.74163e-06	0.000364497	3.88221e-06	0.000364518	0.610226